Folder: BS191-Quantum-Dots/particle in 1 d box/bs191_repository/xrd

File: xrd.txt
2θ 	Intensity,cps	2θ Intensity,cps
20	1100.663	20	1077.893
20.21	1171.98	20.21	1179.581
20.42	1066.949	20.42	1037.218
20.63	1092.368	20.63	1021.965
20.84	1163.186	20.84	1004.169
21.05	1274.741	21.05	1169.412
21.26	1201.785	21.26	1271.1
21.47	1349.277	21.47	1131.279
21.68	1374.479	21.68	1367.704
21.89	1284.83	21.89	1451.597
22.1	1365.456	22.1	1354.993
22.31	1377.404	22.31	1121.11
22.52	1271.891	22.52	1405.837
22.73	1287.915	22.73	1232.967
22.94	1322.128	22.94	1431.259
23.15	1384.459	23.15	1293.98
23.36	1415.317	23.36	1225.341
23.57	1381.119	23.57	1291.438
23.78	1254.91	23.78	1558.369
23.99	1433.086	23.99	1532.947
24.2	1381.075	24.2	1319.402
24.41	1422.685	24.41	1456.681
24.62	1446.622	24.62	1286.354
24.83	1425.257	24.83	1433.801
25.04	1464.858	25.04	1337.197
25.25	1281.65	25.25	1497.356
25.46	1317.713	25.46	1416.006
25.67	1505.369	25.67	1614.297
25.88	1408.635	25.88	1443.97
26.09	1288.463	26.09	1456.681
26.3	1373.349	26.3	1591.417
26.51	1351.991	26.51	1321.944
26.72	1375.431	26.72	1459.223
26.93	1276.056	26.93	1316.86
27.14	1266.249	27.14	1329.571
27.35	1401.722	27.35	1741.407
27.56	1219.622	27.56	1385.499
27.77	1115.175	27.77	1428.717
27.98	1402.493	27.98	1339.74
28.19	1233.318	28.19	1291.438
28.4	1142.263	28.4	1182.123
28.61	1226.568	28.61	1009.254
28.82	1115.107	28.82	1314.318
29.03	1097.229	29.03	1113.484
29.24	1262.524	29.24	1293.98
29.45	1262.304	29.45	1255.847
29.66	1081.599	29.66	1121.11
29.87	1034.155	29.87	1151.617
30.08	1164.325	30.08	938.072
30.29	1103.768	30.29	1141.448
30.5	1084.756	30.5	948.2408
30.71	1103.941	30.71	1126.195
30.92	1094.008	30.92	1055.013
31.13	1081.444	31.13	932.9876
31.34	1059.674	31.34	1149.075
31.55	1052.749	31.55	884.6859
31.76	1096.611	31.76	1080.435
31.97	1006.732	31.97	1217.714
32.18	1049.511	32.18	1182.123
32.39	995.1298	32.39	1039.76
32.6	897.8076	32.6	1128.737
32.81	868.5446	32.81	841.4683
33.02	792.9473	33.02	915.1922
33.23	949.5522	33.23	963.494
33.44	840.646	33.44	960.9518
33.65	796.99	33.65	996.5426
33.86	840.6653	33.86	902.4811
34.07	833.1166	34.07	882.1436
34.28	797.4269	34.28	671.141
34.49	854.874	34.49	752.4914
34.7	719.1547	34.7	1024.507
34.91	849.8414	34.91	772.829
35.12	738.0692	35.12	808.4198
35.33	865.0143	35.33	755.0336
35.54	738.6266	35.54	755.0336
35.75	630.153	35.75	704.1895
35.96	638.566	35.96	582.1639
36.17	632.2852	36.17	513.5245
36.38	679.0378	36.38	823.6729
36.59	760.7883	36.59	775.3712
36.8	661.8375	36.8	648.2611
37.01	752.6979	37.01	602.5015
37.22	510.076	37.22	429.6319
37.43	646.4646	37.43	424.5475
37.64	584.8453	37.64	861.806
37.85	512.7495	37.85	467.7649
38.06	626.592	38.06	574.5373
38.27	536.1598	38.27	678.7676
38.48	485.6744	38.48	704.1895
38.69	633.8527	38.69	668.5987
38.9	545.9507	38.9	800.7932
39.11	562.8311	39.11	785.5399
39.32	544.2828	39.32	655.8878
39.53	582.1805	39.53	569.4529
39.74	596.588	39.74	686.3941
39.95	562.9479	39.95	752.4914
40.16	549.0067	40.16	673.6832
40.37	540.0688	40.37	635.5501
40.58	588.4162	40.58	477.9337
40.79	562.9973	40.79	490.6447
41	561.3331	41	582.1639
41.21	505.7188	41.21	709.2739
41.42	582.5399	41.42	549.1153
41.63	536.9147	41.63	744.8647
41.84	527.3643	41.84	559.2841
42.05	546.8013	42.05	615.2125
42.26	551.0546	42.26	775.3712
42.47	589.2405	42.47	681.3098
42.68	668.2806	42.68	518.6089
42.89	506.017	42.89	653.3456
43.1	563.4791	43.1	683.8519
43.31	445.3476	43.31	584.7061
43.52	468.826	43.52	612.6703
43.73	619.3196	43.73	701.6473
43.94	397.6738	43.94	599.9594
44.15	539.9226	44.15	554.1997
44.36	557.4272	44.36	551.6575
44.57	471.6864	44.57	544.0309
44.78	648.0807	44.78	366.0769
44.99	446.1481	44.99	625.3813
45.2	535.2487	45.2	518.6089
45.41	581.6837	45.41	569.4529
45.62	502.3554	45.62	472.8493
45.83	540.7331	45.83	503.3557
46.04	548.828	46.04	597.4171
46.25	605.5696	46.25	510.9823
46.46	428.8666	46.46	449.9695
46.67	425.9487	46.67	589.7905
46.88	676.3005	46.88	483.0181
47.09	471.4564	47.09	510.9823
47.3	562.3349	47.3	574.5373
47.51	543.3085	47.51	424.5475
47.72	532.9457	47.72	485.5603
47.93	533.9231	47.93	381.3301
48.14	449.7084	48.14	488.1025
48.35	518.0396	48.35	564.3685
48.56	524.4471	48.56	683.8519
48.77	485.1508	48.77	503.3557
48.98	533.5181	48.98	610.1281
49.19	409.0147	49.19	383.8723
49.4	433.9667	49.4	437.2585
49.61	485.5063	49.61	414.3787
49.82	403.822	49.82	401.6677
50.03	450.0677	50.03	442.3429
50.24	506.4582	50.24	429.6319
50.45	487.1268	50.45	462.6805
50.66	402.2547	50.66	429.6319
50.87	469.9022	50.87	449.9695
51.08	472.5819	51.08	523.6933
51.29	482.5566	51.29	401.6677
51.5	376.0084	51.5	475.3915
51.71	452.0207	51.71	424.5475
51.92	477.0671	51.92	490.6447
52.13	443.374	52.13	510.9823
52.34	425.0876	52.34	729.6116
52.55	424.3082	52.55	503.3557
52.76	473.5962	52.76	452.5117
52.97	427.6523	52.97	396.5833
53.18	433.9824	53.18	411.8365
53.39	535.7317	53.39	419.4631
53.6	390.3307	53.6	462.6805
53.81	482.6816	53.81	373.7035
54.02	355.6221	54.02	516.0667
54.23	492.2076	54.23	566.9107
54.44	405.8106	54.44	432.1741
54.65	475.561	54.65	462.6805
54.86	543.4828	54.86	444.8851
55.07	480.9087	55.07	465.2227
55.28	530.5397	55.28	518.6089
55.49	371.86	55.49	592.3327
55.7	460.878	55.7	386.4145
55.91	461.9023	55.91	383.8723
56.12	554.1906	56.12	432.1741
56.33	448.9128	56.33	472.8493
56.54	429.7253	56.54	315.2329
56.75	441.6466	56.75	569.4529
56.96	502.1679	56.96	327.9439
57.17	459.4519	57.17	714.3584
57.38	471.9982	57.38	566.9107
57.59	482.5066	57.59	556.7419
57.8	574.4637	57.8	521.1511
58.01	430.472	58.01	439.8007
58.22	444.7601	58.22	648.2611
58.43	421.1017	58.43	406.7521
58.64	526.8887	58.64	521.1511
58.85	455.0192	58.85	480.4759
59.06	472.9244	59.06	472.8493
59.27	505.6845	59.27	404.2099
59.48	525.8939	59.48	429.6319
59.69	383.3489	59.69	434.7163
59.9	471.4564	59.9	571.9951
60.11	387.3523	60.11	566.9107
60.32	425.8981	60.32	292.3531
60.53	525.3951	60.53	477.9337
60.74	517.0497	60.74	472.8493
60.95	466.3175	60.95	538.9465
61.16	506.3069	61.16	442.3429
61.37	388.141	61.37	381.3301
61.58	445.0151	61.58	378.7879
61.79	493.1969	61.79	401.6677
62	528.951	62	368.6191
62.21	579.8619	62.21	541.4887
62.42	461.9973	62.42	480.4759
62.63	442.2566	62.63	488.1025
62.84	516.9697	62.84	508.4401
63.05	501.7592	63.05	360.9925
63.26	457.3608	63.26	498.2713
63.47	469.5772	63.47	465.2227
63.68	378.715	63.68	584.7061
63.89	513.9031	63.89	477.9337
64.1	395.7397	64.1	277.0999
64.31	387.1473	64.31	307.6063
64.52	417.7083	64.52	523.6933
64.73	352.3561	64.73	371.1613
64.94	407.3011	64.94	549.1153
65.15	417.0595	65.15	419.4631
65.36	491.9545	65.36	422.0053
65.57	399.8418	65.57	424.5475
65.78	520.0781	65.78	419.4631
65.99	409.9621	65.99	394.0411
66.2	434.4055	66.2	434.7163
66.41	410.3927	66.41	429.6319
66.62	415.2041	66.62	510.9823
66.83	472.0938	66.83	292.3531
67.04	426.0544	67.04	414.3787
67.25	470.3003	67.25	422.0053
67.46	463.2378	67.46	406.7521
67.67	389.1046	67.67	310.1485
67.88	409.0147	67.88	566.9107
68.09	439.155	68.09	388.9567
68.3	480.0424	68.3	422.0053
68.51	502.4873	68.51	414.3787
68.72	438.6257	68.72	444.8851
68.93	428.226	68.93	419.4631
69.14	327.9697	69.14	475.3915
69.35	332.7086	69.35	610.1281
69.56	376.5852	69.56	556.7419
69.77	389.4702	69.77	282.1843
69.98	377.3463	69.98	381.3301
70.19	340.3716	70.19	536.4043
70.4	403.2908	70.4	401.6677
70.61	333.3442	70.61	452.5117
70.82	385.7587	70.82	335.5705
71.03	363.8089	71.03	457.5961
71.24	387.9166	71.24	470.3071
71.45	379.3668	71.45	475.3915
71.66	436.194	71.66	477.9337
71.87	354.8703	71.87	429.6319
72.08	338.5374	72.08	381.3301
72.29	455.8328	72.29	348.2815
72.5	448.4048	72.5	424.5475
72.71	349.5645	72.71	437.2585
72.92	404.3407	72.92	467.7649
73.13	361.2197	73.13	386.4145
73.34	408.0823	73.34	381.3301
73.55	340.4785	73.55	348.2815
73.76	380.6304	73.76	335.5705
73.97	398.7756	73.97	348.2815
74.18	325.6861	74.18	518.6089
74.39	406.2868	74.39	533.8621
74.6	375.3146	74.6	495.7291
74.81	343.6826	74.81	437.2585
75.02	392.3062	75.02	315.2329
75.23	276.39	75.23	358.4503
75.44	371.5906	75.44	325.4016
75.65	395.9009	75.65	429.6319
75.86	335.5002	75.86	353.3659
76.07	301.0896	76.07	420.0987
76.28	321.8508	76.28	322.8595
76.49	277.7768	76.49	279.6421
76.7	270.3819	76.7	317.7751
76.91	263.6131	76.91	358.4503
77.12	310.415	77.12	307.6063
77.33	344.4131	77.33	233.8824
77.54	272.881	77.54	467.7649
77.75	344.8019	77.75	363.5347
77.96	309.9557	77.96	292.3531
78.17	297.2219	78.17	310.1485
78.38	375.1178	78.38	368.6191
78.59	417.3114	78.59	366.0769
78.8	347.4854	78.8	302.5219
79.01	327.1185	79.01	391.4989
79.22	261.7883	79.22	284.7265
79.43	319.4542	79.43	317.7751
79.64	341.8678	79.64	203.376
79.85	215.8582	79.85	289.8109
80	207.2777	80	317.7751